Data from Subt2_17-03-04-800.txt Node
Date: Wed Dec 05 17:03:04 CET 2018
User: Artur
Spectrometer: FLMS13639
Trigger mode: 0
Integration Time (sec): 1,000000E-1
Scans to average: 1
Electric dark correction enabled: true
Nonlinearity correction enabled: false
Boxcar width: 0
XAxis mode: Wavelengths
Number of Pixels in Spectrum: 2048
>>>>>Begin Spectral Data<<<<<
339,73	37,95
340,109	37,95
340,488	37,95
340,866	-90
341,245	-125,13
341,624	-57,39
342,002	55,51
342,381	-59,9
342,759	58,02
343,138	63,03
343,516	10,35
343,894	5,33
344,273	-4,7
344,651	-37,32
345,029	10,35
345,408	-37,32
345,786	-42,34
346,164	-14,74
346,542	55,51
346,92	0,31
347,298	-4,7
347,676	7,84
348,054	-74,95
348,432	17,88
348,81	-39,83
349,188	10,35
349,566	-67,42
349,944	-32,3
350,322	-7,21
350,699	93,14
351,077	-107,57
351,455	-34,81
351,832	-87,49
352,21	30,42
352,588	35,44
352,965	75,58
353,343	-107,57
353,72	75,58
354,098	-67,42
354,475	-32,3
354,852	-4,7
355,23	20,38
355,607	-52,37
355,984	-95,02
356,361	12,86
356,739	-135,16
357,116	-59,9
357,493	-32,3
357,87	-47,35
358,247	-95,02
358,624	35,44
359,001	7,84
359,378	-57,39
359,755	-19,76
360,132	-22,27
360,508	-54,88
360,885	-42,34
361,262	-74,95
361,639	25,4
362,015	-72,44
362,392	-29,79
362,769	63,03
363,145	-17,25
363,522	-44,84
363,898	47,98
364,275	-7,21
364,651	15,37
365,028	-14,74
365,404	-2,2
365,78	-27,28
366,157	-4,7
366,533	-52,37
366,909	-29,79
367,285	2,82
367,661	-54,88
368,038	-132,65
368,414	-62,41
368,79	-34,81
369,166	50,49
369,542	-29,79
369,918	-62,41
370,294	-2,2
370,669	7,84
371,045	5,33
371,421	-47,35
371,797	-52,37
372,172	22,89
372,548	27,91
372,924	-12,23
373,299	10,35
373,675	-57,39
374,05	-74,95
374,426	-27,28
374,801	-42,34
375,177	-100,04
375,552	-49,86
375,928	10,35
376,303	25,4
376,678	42,96
377,053	12,86
377,429	-84,99
377,804	-39,83
378,179	-54,88
378,554	-49,86
378,929	5,33
379,304	-105,06
379,679	-17,25
380,054	-42,34
380,429	-79,97
380,804	42,96
381,179	27,91
381,553	-54,88
381,928	-57,39
382,303	-54,88
382,678	40,45
383,052	-17,25
383,427	42,96
383,801	-9,72
384,176	60,52
384,551	-47,35
384,925	35,44
385,299	-90
385,674	-2,2
386,048	-95,02
386,422	-14,74
386,797	-52,37
387,171	-22,27
387,545	-32,3
387,919	-39,83
388,293	-44,84
388,668	-87,49
389,042	17,88
389,416	-152,72
389,79	22,89
390,164	37,95
390,537	-9,72
390,911	7,84
391,285	-12,23
391,659	40,45
392,033	58,02
392,406	-74,95
392,78	-62,41
393,154	-72,44
393,527	53
393,901	-37,32
394,274	2,82
394,648	-47,35
395,021	7,84
395,395	30,42
395,768	-54,88
396,142	15,37
396,515	-29,79
396,888	-47,35
397,261	-29,79
397,635	70,56
398,008	-42,34
398,381	-62,41
398,754	-24,77
399,127	-47,35
399,5	-32,3
399,873	-27,28
400,246	7,84
400,619	75,58
400,991	90,63
401,364	-112,58
401,737	-54,88
402,11	-27,28
402,482	-77,46
402,855	-22,27
403,228	-27,28
403,6	-29,79
403,973	-39,83
404,345	60,52
404,718	-87,49
405,09	20,38
405,463	-2,2
405,835	-72,44
406,207	-157,74
406,58	-64,92
406,952	-127,64
407,324	22,89
407,696	-22,27
408,068	-44,84
408,44	-17,25
408,812	-19,76
409,184	10,35
409,556	47,98
409,928	-147,71
410,3	-95,02
410,672	-37,32
411,044	-9,72
411,416	88,12
411,787	15,37
412,159	35,44
412,531	-29,79
412,902	-49,86
413,274	-2,2
413,645	55,51
414,017	42,96
414,388	-44,84
414,76	-39,83
415,131	63,03
415,503	-2,2
415,874	-105,06
416,245	30,42
416,616	47,98
416,987	-90
417,359	-37,32
417,73	22,89
418,101	80,6
418,472	27,91
418,843	2,82
419,214	-29,79
419,585	30,42
419,956	15,37
420,326	-7,21
420,697	5,33
421,068	-82,48
421,439	-24,77
421,809	-17,25
422,18	-130,14
422,551	65,54
422,921	-22,27
423,292	-112,58
423,662	-39,83
424,033	-22,27
424,403	-64,92
424,773	-32,3
425,144	-2,2
425,514	-34,81
425,884	-47,35
426,254	-27,28
426,624	42,96
426,995	7,84
427,365	-7,21
427,735	115,72
428,105	-24,77
428,475	-4,7
428,845	-2,2
429,214	-79,97
429,584	10,35
429,954	0,31
430,324	15,37
430,694	-47,35
431,063	113,21
431,433	5,33
431,803	-52,37
432,172	58,02
432,542	-90
432,911	-69,93
433,281	-52,37
433,65	-62,41
434,019	-17,25
434,389	12,86
434,758	45,47
435,127	-57,39
435,496	-2,2
435,866	-105,06
436,235	-39,83
436,604	15,37
436,973	-39,83
437,342	-107,57
437,711	37,95
438,08	15,37
438,449	7,84
438,817	100,67
439,186	10,35
439,555	88,12
439,924	42,96
440,292	2,82
440,661	-142,69
441,03	-155,23
441,398	17,88
441,767	-79,97
442,135	-29,79
442,503	-37,32
442,872	-54,88
443,24	-42,34
443,609	-67,42
443,977	-37,32
444,345	-74,95
444,713	-14,74
445,081	2,82
445,449	-24,77
445,818	80,6
446,186	32,93
446,554	42,96
446,921	15,37
447,289	-47,35
447,657	-2,2
448,025	-34,81
448,393	-9,72
448,761	-112,58
449,128	-19,76
449,496	123,25
449,864	-64,92
450,231	32,93
450,599	-77,46
450,966	22,89
451,334	-14,74
451,701	-42,34
452,068	5,33
452,436	-69,93
452,803	-39,83
453,17	-12,23
453,537	-22,27
453,905	-2,2
454,272	37,95
454,639	-4,7
455,006	37,95
455,373	-142,69
455,74	-17,25
456,107	-17,25
456,473	-14,74
456,84	-92,51
457,207	-47,35
457,574	-49,86
457,941	60,52
458,307	-44,84
458,674	-72,44
459,04	120,74
459,407	-9,72
459,773	-67,42
460,14	-9,72
460,506	-52,37
460,873	50,49
461,239	40,45
461,605	-19,76
461,972	-115,09
462,338	58,02
462,704	-4,7
463,07	-172,79
463,436	-52,37
463,802	10,35
464,168	22,89
464,534	55,51
464,9	-37,32
465,266	-72,44
465,632	-92,51
465,997	0,31
466,363	60,52
466,729	-14,74
467,094	32,93
467,46	-32,3
467,826	-67,42
468,191	-22,27
468,557	-44,84
468,922	-64,92
469,288	-47,35
469,653	-54,88
470,018	37,95
470,383	-84,99
470,749	2,82
471,114	-84,99
471,479	-92,51
471,844	-37,32
472,209	-57,39
472,574	-14,74
472,939	-34,81
473,304	-97,53
473,669	-49,86
474,034	25,4
474,399	-125,13
474,763	0,31
475,128	10,35
475,493	-54,88
475,857	-54,88
476,222	-37,32
476,587	-59,9
476,951	-84,99
477,316	12,86
477,68	-87,49
478,044	30,42
478,409	-54,88
478,773	0,31
479,137	10,35
479,501	-9,72
479,866	-2,2
480,23	0,31
480,594	-90
480,958	0,31
481,322	-2,2
481,686	17,88
482,05	-122,62
482,413	85,61
482,777	17,88
483,141	7,84
483,505	47,98
483,868	-67,42
484,232	-19,76
484,596	-37,32
484,959	12,86
485,323	88,12
485,686	-130,14
486,05	-87,49
486,413	-24,77
486,776	-110,07
487,14	-107,57
487,503	12,86
487,866	-29,79
488,229	2,82
488,592	-37,32
488,956	-9,72
489,319	-64,92
489,682	-14,74
490,045	-130,14
490,407	-39,83
490,77	-62,41
491,133	-142,69
491,496	-14,74
491,859	22,89
492,221	-4,7
492,584	32,93
492,947	-12,23
493,309	-29,79
493,672	135,79
494,034	-42,34
494,396	-24,77
494,759	17,88
495,121	-32,3
495,483	30,42
495,846	32,93
496,208	-102,55
496,57	-62,41
496,932	-17,25
497,294	-64,92
497,656	25,4
498,018	-82,48
498,38	-57,39
498,742	40,45
499,104	-74,95
499,466	68,05
499,827	-37,32
500,189	-130,14
500,551	-69,93
500,912	2,82
501,274	-42,34
501,636	-59,9
501,997	17,88
502,359	-62,41
502,72	5,33
503,081	-42,34
503,443	-87,49
503,804	2,82
504,165	-82,48
504,526	-74,95
504,887	-32,3
505,249	75,58
505,61	-29,79
505,971	22,89
506,332	0,31
506,692	32,93
507,053	45,47
507,414	-17,25
507,775	80,6
508,136	17,88
508,496	15,37
508,857	17,88
509,218	-74,95
509,578	78,09
509,939	73,07
510,299	37,95
510,66	83,1
511,02	-72,44
511,38	-37,32
511,741	-74,95
512,101	-2,2
512,461	-59,9
512,821	-7,21
513,181	-29,79
513,541	12,86
513,901	93,14
514,261	63,03
514,621	35,44
514,981	15,37
515,341	-59,9
515,701	-115,09
516,06	-59,9
516,42	75,58
516,78	10,35
517,139	-79,97
517,499	-54,88
517,859	-47,35
518,218	-125,13
518,577	22,89
518,937	53
519,296	32,93
519,655	-29,79
520,015	27,91
520,374	0,31
520,733	105,68
521,092	5,33
521,451	45,47
521,81	128,26
522,169	-64,92
522,528	-49,86
522,887	-84,99
523,246	-24,77
523,605	-62,41
523,963	2,82
524,322	37,95
524,681	63,03
525,039	-22,27
525,398	2,82
525,756	-59,9
526,115	-52,37
526,473	90,63
526,832	-32,3
527,19	-24,77
527,548	75,58
527,906	123,25
528,265	-19,76
528,623	47,98
528,981	20,38
529,339	-12,23
529,697	45,47
530,055	-77,46
530,413	-37,32
530,771	5,33
531,128	-62,41
531,486	0,31
531,844	70,56
532,202	80,6
532,559	32,93
532,917	32,93
533,274	12,86
533,632	35,44
533,989	-62,41
534,347	-19,76
534,704	40,45
535,061	30,42
535,419	-7,21
535,776	32,93
536,133	53
536,49	30,42
536,847	45,47
537,204	25,4
537,561	20,38
537,918	10,35
538,275	12,86
538,632	12,86
538,989	53
539,346	-34,81
539,702	73,07
540,059	-9,72
540,415	55,51
540,772	-84,99
541,129	55,51
541,485	100,67
541,841	12,86
542,198	-4,7
542,554	-77,46
542,91	65,54
543,267	-74,95
543,623	-64,92
543,979	25,4
544,335	35,44
544,691	100,67
545,047	-39,83
545,403	-17,25
545,759	-32,3
546,115	45,47
546,471	30,42
546,826	50,49
547,182	-24,77
547,538	7,84
547,893	70,56
548,249	17,88
548,605	-9,72
548,96	42,96
549,315	88,12
549,671	15,37
550,026	-32,3
550,381	25,4
550,737	95,65
551,092	128,26
551,447	80,6
551,802	53
552,157	148,33
552,512	12,86
552,867	73,07
553,222	55,51
553,577	45,47
553,932	58,02
554,286	60,52
554,641	145,82
554,996	103,17
555,35	155,86
555,705	128,26
556,06	35,44
556,414	5,33
556,768	15,37
557,123	78,09
557,477	148,33
557,831	113,21
558,186	190,98
558,54	163,39
558,894	148,33
559,248	223,6
559,602	175,93
559,956	168,4
560,31	196
560,664	228,61
561,018	125,75
561,372	180,95
561,725	213,56
562,079	223,6
562,433	198,51
562,786	253,7
563,14	163,39
563,493	286,32
563,847	386,67
564,2	233,63
564,554	266,25
564,907	251,19
565,26	291,33
565,614	301,37
565,967	366,6
566,32	364,09
566,673	394,2
567,026	326,46
567,379	286,32
567,732	298,86
568,085	261,23
568,438	391,69
568,79	426,81
569,143	459,42
569,496	474,48
569,848	532,18
570,201	451,9
570,554	359,07
570,906	479,5
571,259	446,88
571,611	391,69
571,963	359,07
572,316	474,48
572,668	444,37
573,02	482
573,372	534,69
573,724	539,71
574,076	406,74
574,428	406,74
574,78	504,58
575,132	632,53
575,484	494,55
575,836	499,57
576,188	614,97
576,539	567,3
576,891	617,48
577,243	657,62
577,594	504,58
577,946	647,59
578,297	604,94
578,649	572,32
579	614,97
579,351	667,66
579,703	630,02
580,054	567,3
580,405	607,44
580,756	687,73
581,107	619,99
581,458	675,18
581,809	569,81
582,16	542,22
582,511	604,94
582,862	574,83
583,212	552,25
583,563	594,9
583,914	537,2
584,264	582,36
584,615	702,78
584,966	572,32
585,316	612,46
585,666	604,94
586,017	617,48
586,367	567,3
586,717	471,97
587,068	597,41
587,418	537,2
587,768	502,07
588,118	484,51
588,468	582,36
588,818	321,44
589,168	416,78
589,518	482
589,868	497,06
590,217	559,78
590,567	454,41
590,917	650,09
591,266	459,42
591,616	471,97
591,966	459,42
592,315	426,81
592,664	404,23
593,014	429,32
593,363	361,58
593,712	339
594,062	404,23
594,411	251,19
594,76	439,35
595,109	313,91
595,458	339
595,807	306,39
596,156	273,77
596,505	253,7
596,854	185,97
597,202	308,9
597,551	273,77
597,9	231,12
598,248	211,05
598,597	196
598,945	128,26
599,294	180,95
599,642	198,51
599,991	206,04
600,339	95,65
600,687	98,16
601,035	228,61
601,384	203,53
601,732	193,49
602,08	118,23
602,428	198,51
602,776	308,9
603,124	301,37
603,471	105,68
603,819	148,33
604,167	143,32
604,515	173,42
604,862	103,17
605,21	168,4
605,557	223,6
605,905	50,49
606,252	110,7
606,6	75,58
606,947	73,07
607,294	35,44
607,642	140,81
607,989	98,16
608,336	138,3
608,683	110,7
609,03	95,65
609,377	83,1
609,724	58,02
610,071	93,14
610,418	173,42
610,765	150,84
611,111	120,74
611,458	47,98
611,805	-39,83
612,151	55,51
612,498	83,1
612,844	63,03
613,191	128,26
613,537	65,54
613,883	5,33
614,23	70,56
614,576	100,67
614,922	103,17
615,268	68,05
615,614	-27,28
615,96	-64,92
616,306	-52,37
616,652	-49,86
616,998	-37,32
617,344	115,72
617,689	40,45
618,035	198,51
618,381	-14,74
618,726	55,51
619,072	22,89
619,417	22,89
619,763	93,14
620,108	53
620,453	-4,7
620,799	30,42
621,144	55,51
621,489	30,42
621,834	25,4
622,179	17,88
622,524	20,38
622,869	65,54
623,214	75,58
623,559	100,67
623,904	-102,55
624,249	-24,77
624,593	-19,76
624,938	-14,74
625,283	-7,21
625,627	-17,25
625,972	17,88
626,316	12,86
626,66	103,17
627,005	65,54
627,349	-9,72
627,693	-62,41
628,037	-14,74
628,382	-54,88
628,726	15,37
629,07	63,03
629,414	-22,27
629,757	-29,79
630,101	47,98
630,445	-22,27
630,789	-79,97
631,133	-57,39
631,476	0,31
631,82	-57,39
632,163	58,02
632,507	-79,97
632,85	25,4
633,194	-29,79
633,537	-74,95
633,88	17,88
634,224	58,02
634,567	-74,95
634,91	-4,7
635,253	-47,35
635,596	-52,37
635,939	-22,27
636,282	55,51
636,625	-100,04
636,967	-69,93
637,31	-17,25
637,653	-17,25
637,996	-72,44
638,338	-62,41
638,681	63,03
639,023	50,49
639,366	20,38
639,708	2,82
640,05	-57,39
640,393	75,58
640,735	60,52
641,077	88,12
641,419	-90
641,761	35,44
642,103	12,86
642,445	0,31
642,787	-37,32
643,129	-14,74
643,471	-59,9
643,812	-39,83
644,154	-49,86
644,496	85,61
644,837	0,31
645,179	75,58
645,52	55,51
645,862	-17,25
646,203	-92,51
646,544	-105,06
646,886	-9,72
647,227	-102,55
647,568	-69,93
647,909	-52,37
648,25	10,35
648,591	63,03
648,932	-57,39
649,273	68,05
649,614	83,1
649,954	-2,2
650,295	55,51
650,636	-135,16
650,976	17,88
651,317	-39,83
651,657	73,07
651,998	-27,28
652,338	-22,27
652,679	-47,35
653,019	-42,34
653,359	-64,92
653,699	20,38
654,039	42,96
654,379	-95,02
654,719	-82,48
655,059	-107,57
655,399	-24,77
655,739	-29,79
656,079	-84,99
656,419	-17,25
656,758	-24,77
657,098	-72,44
657,437	-27,28
657,777	-59,9
658,116	60,52
658,456	-102,55
658,795	7,84
659,135	20,38
659,474	2,82
659,813	20,38
660,152	27,91
660,491	-7,21
660,83	5,33
661,169	65,54
661,508	-27,28
661,847	-77,46
662,186	-14,74
662,524	-12,23
662,863	-47,35
663,202	135,79
663,54	-130,14
663,879	-4,7
664,217	-2,2
664,556	25,4
664,894	-12,23
665,233	-22,27
665,571	-49,86
665,909	42,96
666,247	25,4
666,585	17,88
666,923	-7,21
667,261	-44,84
667,599	-49,86
667,937	37,95
668,275	-42,34
668,613	5,33
668,95	-42,34
669,288	95,65
669,626	-57,39
669,963	-67,42
670,301	-32,3
670,638	103,17
670,975	55,51
671,313	-54,88
671,65	30,42
671,987	93,14
672,324	-39,83
672,661	-12,23
672,998	-12,23
673,335	-67,42
673,672	-100,04
674,009	-39,83
674,346	-22,27
674,683	-92,51
675,019	-69,93
675,356	12,86
675,693	-19,76
676,029	2,82
676,366	-82,48
676,702	-90
677,039	5,33
677,375	53
677,711	55,51
678,047	-52,37
678,383	-9,72
678,72	55,51
679,056	-79,97
679,392	-59,9
679,727	-17,25
680,063	-29,79
680,399	-27,28
680,735	-29,79
681,071	0,31
681,406	-74,95
681,742	-117,6
682,077	10,35
682,413	-32,3
682,748	12,86
683,084	-69,93
683,419	5,33
683,754	32,93
684,089	12,86
684,424	10,35
684,76	-137,67
685,095	-52,37
685,429	45,47
685,764	-100,04
686,099	12,86
686,434	40,45
686,769	17,88
687,103	90,63
687,438	-147,71
687,773	-49,86
688,107	155,86
688,442	-52,37
688,776	35,44
689,11	80,6
689,445	-12,23
689,779	65,54
690,113	-22,27
690,447	-12,23
690,781	25,4
691,115	-2,2
691,449	-29,79
691,783	7,84
692,117	7,84
692,451	22,89
692,784	-17,25
693,118	-4,7
693,452	73,07
693,785	-62,41
694,119	-79,97
694,452	-19,76
694,786	10,35
695,119	-29,79
695,452	27,91
695,785	12,86
696,118	47,98
696,452	-12,23
696,785	-12,23
697,118	-37,32
697,45	-95,02
697,783	-22,27
698,116	-107,57
698,449	-52,37
698,782	-39,83
699,114	80,6
699,447	-22,27
699,779	-135,16
700,112	-77,46
700,444	-140,18
700,776	27,91
701,109	-27,28
701,441	-47,35
701,773	-14,74
702,105	-14,74
702,437	-52,37
702,769	-74,95
703,101	-29,79
703,433	15,37
703,765	37,95
704,097	123,25
704,428	-47,35
704,76	30,42
705,092	37,95
705,423	-72,44
705,755	-44,84
706,086	20,38
706,417	20,38
706,749	-32,3
707,08	-27,28
707,411	-39,83
707,742	-19,76
708,073	-64,92
708,404	-22,27
708,735	-84,99
709,066	-115,09
709,397	-95,02
709,728	-37,32
710,059	-27,28
710,389	-97,53
710,72	85,61
711,05	5,33
711,381	10,35
711,711	-59,9
712,042	-59,9
712,372	-87,49
712,702	-57,39
713,033	-62,41
713,363	-39,83
713,693	-69,93
714,023	-14,74
714,353	5,33
714,683	-12,23
715,013	0,31
715,342	0,31
715,672	50,49
716,002	-57,39
716,331	-57,39
716,661	65,54
716,99	-69,93
717,32	-14,74
717,649	-110,07
717,979	10,35
718,308	25,4
718,637	95,65
718,966	-127,64
719,295	12,86
719,624	20,38
719,953	-4,7
720,282	5,33
720,611	-9,72
720,94	65,54
721,269	30,42
721,597	2,82
721,926	-120,11
722,254	37,95
722,583	63,03
722,911	-69,93
723,24	-14,74
723,568	60,52
723,896	-32,3
724,225	5,33
724,553	-14,74
724,881	-27,28
725,209	17,88
725,537	73,07
725,865	42,96
726,193	95,65
726,52	60,52
726,848	-32,3
727,176	10,35
727,503	-90
727,831	-97,53
728,158	-32,3
728,486	98,16
728,813	-54,88
729,14	-57,39
729,468	-84,99
729,795	-82,48
730,122	78,09
730,449	20,38
730,776	-54,88
731,103	-105,06
731,43	68,05
731,757	-7,21
732,084	42,96
732,41	-84,99
732,737	-95,02
733,064	68,05
733,39	15,37
733,717	0,31
734,043	-117,6
734,369	-77,46
734,696	-12,23
735,022	-27,28
735,348	40,45
735,674	5,33
736	-115,09
736,326	63,03
736,652	-29,79
736,978	25,4
737,304	-67,42
737,63	-47,35
737,955	25,4
738,281	15,37
738,607	-39,83
738,932	-39,83
739,258	-34,81
739,583	-44,84
739,908	40,45
740,234	-107,57
740,559	-132,65
740,884	-87,49
741,209	-7,21
741,534	50,49
741,859	-19,76
742,184	-32,3
742,509	5,33
742,834	-4,7
743,158	10,35
743,483	-14,74
743,808	-67,42
744,132	-37,32
744,457	-52,37
744,781	-34,81
745,106	-102,55
745,43	10,35
745,754	85,61
746,078	53
746,402	-7,21
746,727	-22,27
747,051	12,86
747,375	-44,84
747,698	-14,74
748,022	45,47
748,346	-42,34
748,67	-29,79
748,993	-64,92
749,317	-37,32
749,64	-7,21
749,964	-57,39
750,287	-95,02
750,611	-22,27
750,934	-29,79
751,257	0,31
751,58	-14,74
751,903	70,56
752,226	-7,21
752,549	-39,83
752,872	12,86
753,195	42,96
753,518	-120,11
753,841	-9,72
754,163	-12,23
754,486	-64,92
754,809	20,38
755,131	5,33
755,453	-54,88
755,776	-157,74
756,098	-112,58
756,42	42,96
756,743	15,37
757,065	-59,9
757,387	90,63
757,709	63,03
758,031	-105,06
758,352	22,89
758,674	-54,88
758,996	37,95
759,318	-29,79
759,639	58,02
759,961	90,63
760,282	37,95
760,604	-17,25
760,925	60,52
761,247	-17,25
761,568	53
761,889	-87,49
762,21	-90
762,531	-67,42
762,852	35,44
763,173	15,37
763,494	-79,97
763,815	-19,76
764,136	-59,9
764,456	5,33
764,777	-100,04
765,098	-17,25
765,418	-4,7
765,738	20,38
766,059	95,65
766,379	-34,81
766,699	0,31
767,02	-19,76
767,34	5,33
767,66	-37,32
767,98	-2,2
768,3	-107,57
768,62	-102,55
768,94	-19,76
769,259	-100,04
769,579	-2,2
769,899	-105,06
770,218	37,95
770,538	-29,79
770,857	7,84
771,177	-42,34
771,496	-97,53
771,815	7,84
772,134	-74,95
772,454	27,91
772,773	37,95
773,092	0,31
773,411	73,07
773,729	-37,32
774,048	17,88
774,367	-127,64
774,686	-54,88
775,004	-100,04
775,323	50,49
775,642	-7,21
775,96	-9,72
776,278	-4,7
776,597	-12,23
776,915	32,93
777,233	15,37
777,551	-44,84
777,869	50,49
778,187	17,88
778,505	-44,84
778,823	-122,62
779,141	0,31
779,459	12,86
779,777	-22,27
780,094	113,21
780,412	-47,35
780,729	22,89
781,047	45,47
781,364	17,88
781,681	-54,88
781,999	35,44
782,316	0,31
782,633	-34,81
782,95	-77,46
783,267	32,93
783,584	-7,21
783,901	-115,09
784,218	-117,6
784,534	65,54
784,851	25,4
785,168	-34,81
785,484	-27,28
785,801	65,54
786,117	-9,72
786,434	-19,76
786,75	-12,23
787,066	75,58
787,382	-42,34
787,698	63,03
788,014	-69,93
788,33	12,86
788,646	-84,99
788,962	-67,42
789,278	-29,79
789,594	58,02
789,909	125,75
790,225	5,33
790,541	-64,92
790,856	-64,92
791,171	-82,48
791,487	-4,7
791,802	-27,28
792,117	-14,74
792,432	-24,77
792,748	-77,46
793,063	17,88
793,378	10,35
793,692	-59,9
794,007	12,86
794,322	-14,74
794,637	83,1
794,951	22,89
795,266	-37,32
795,58	-64,92
795,895	-19,76
796,209	-110,07
796,524	-14,74
796,838	-24,77
797,152	93,14
797,466	-24,77
797,78	-42,34
798,094	-79,97
798,408	-67,42
798,722	-44,84
799,036	-49,86
799,35	-82,48
799,663	-92,51
799,977	-69,93
800,291	-42,34
800,604	-19,76
800,917	-57,39
801,231	32,93
801,544	-84,99
801,857	-22,27
802,17	0,31
802,484	0,31
802,797	-54,88
803,11	45,47
803,422	-37,32
803,735	-87,49
804,048	35,44
804,361	-102,55
804,673	-64,92
804,986	-64,92
805,299	-115,09
805,611	-14,74
805,923	-7,21
806,236	-7,21
806,548	35,44
806,86	68,05
807,172	27,91
807,484	60,52
807,796	-39,83
808,108	-47,35
808,42	-22,27
808,732	2,82
809,044	25,4
809,355	-82,48
809,667	25,4
809,978	-57,39
810,29	-90
810,601	40,45
810,913	-32,3
811,224	32,93
811,535	-49,86
811,846	37,95
812,157	-64,92
812,468	-32,3
812,779	-4,7
813,09	5,33
813,401	-12,23
813,712	-7,21
814,023	-17,25
814,333	-97,53
814,644	60,52
814,954	2,82
815,265	-105,06
815,575	90,63
815,885	-74,95
816,196	-32,3
816,506	-64,92
816,816	50,49
817,126	-84,99
817,436	2,82
817,746	-27,28
818,056	-19,76
818,365	-12,23
818,675	-2,2
818,985	-24,77
819,294	-49,86
819,604	-24,77
819,913	12,86
820,223	-32,3
820,532	95,65
820,841	20,38
821,15	63,03
821,459	-19,76
821,768	-32,3
822,077	-9,72
822,386	-87,49
822,695	-69,93
823,004	-34,81
823,313	-62,41
823,621	-112,58
823,93	-4,7
824,238	-39,83
824,547	-115,09
824,855	-17,25
825,164	-37,32
825,472	83,1
825,78	68,05
826,088	10,35
826,396	25,4
826,704	-44,84
827,012	-79,97
827,32	-47,35
827,628	-69,93
827,935	-67,42
828,243	-62,41
828,551	-29,79
828,858	105,68
829,166	20,38
829,473	0,31
829,78	-47,35
830,088	42,96
830,395	-14,74
830,702	-17,25
831,009	15,37
831,316	-100,04
831,623	0,31
831,93	-105,06
832,236	-19,76
832,543	12,86
832,85	-24,77
833,156	-39,83
833,463	-79,97
833,769	7,84
834,076	-84,99
834,382	-37,32
834,688	-4,7
834,994	-47,35
835,301	-67,42
835,607	-100,04
835,913	-64,92
836,218	53
836,524	-150,21
836,83	-54,88
837,136	37,95
837,441	7,84
837,747	-140,18
838,053	-12,23
838,358	30,42
838,663	-17,25
838,969	-57,39
839,274	-79,97
839,579	-27,28
839,884	-27,28
840,189	-180,32
840,494	-44,84
840,799	-62,41
841,104	-64,92
841,409	-74,95
841,713	-130,14
842,018	-2,2
842,323	-62,41
842,627	-120,11
842,931	-82,48
843,236	27,91
843,54	42,96
843,844	-87,49
844,148	-54,88
844,453	-42,34
844,757	-12,23
845,061	-95,02
845,364	40,45
845,668	63,03
845,972	-62,41
846,276	-122,62
846,579	58,02
846,883	63,03
847,186	-74,95
847,49	-37,32
847,793	-32,3
848,096	58,02
848,4	-44,84
848,703	-90
849,006	20,38
849,309	-17,25
849,612	138,3
849,915	-102,55
850,217	-9,72
850,52	-57,39
850,823	-95,02
851,125	-27,28
851,428	-77,46
851,73	27,91
852,033	-115,09
852,335	-57,39
852,637	-74,95
852,939	-19,76
853,242	22,89
853,544	-57,39
853,846	-34,81
854,147	2,82
854,449	-67,42
854,751	-4,7
855,053	40,45
855,354	-34,81
855,656	-59,9
855,957	5,33
856,259	-44,84
856,56	-44,84
856,862	0,31
857,163	12,86
857,464	20,38
857,765	-44,84
858,066	-122,62
858,367	25,4
858,668	0,31
858,969	-22,27
859,269	-34,81
859,57	-22,27
859,871	-52,37
860,171	-44,84
860,472	-107,57
860,772	-12,23
861,072	-2,2
861,373	47,98
861,673	-34,81
861,973	-49,86
862,273	73,07
862,573	-12,23
862,873	58,02
863,173	-52,37
863,472	-32,3
863,772	45,47
864,072	68,05
864,371	7,84
864,671	12,86
864,97	7,84
865,27	-52,37
865,569	7,84
865,868	-12,23
866,167	35,44
866,466	-32,3
866,765	83,1
867,064	83,1
867,363	-112,58
867,662	-9,72
867,961	42,96
868,259	-14,74
868,558	55,51
868,857	63,03
869,155	-9,72
869,453	0,31
869,752	2,82
870,05	-82,48
870,348	65,54
870,646	-72,44
870,944	-32,3
871,242	-44,84
871,54	27,91
871,838	-22,27
872,136	-87,49
872,433	-102,55
872,731	-49,86
873,028	-72,44
873,326	-27,28
873,623	-95,02
873,921	-102,55
874,218	40,45
874,515	-32,3
874,812	-14,74
875,109	-67,42
875,406	17,88
875,703	37,95
876	-52,37
876,297	7,84
876,594	70,56
876,89	47,98
877,187	2,82
877,483	-2,2
877,78	-17,25
878,076	-132,65
878,372	-102,55
878,669	5,33
878,965	-2,2
879,261	-59,9
879,557	53
879,853	-37,32
880,149	-57,39
880,444	7,84
880,74	-79,97
881,036	-9,72
881,331	-34,81
881,627	15,37
881,922	-162,76
882,218	50,49
882,513	12,86
882,808	-72,44
883,103	-95,02
883,398	17,88
883,693	22,89
883,988	-69,93
884,283	-47,35
884,578	22,89
884,873	7,84
885,167	-14,74
885,462	-42,34
885,756	-19,76
886,051	15,37
886,345	22,89
886,639	-54,88
886,934	-37,32
887,228	65,54
887,522	115,72
887,816	25,4
888,11	7,84
888,404	-95,02
888,698	-22,27
888,991	35,44
889,285	37,95
889,579	27,91
889,872	-7,21
890,166	-37,32
890,459	-12,23
890,752	2,82
891,045	37,95
891,339	0,31
891,632	20,38
891,925	-107,57
892,218	-100,04
892,511	-42,34
892,803	-47,35
893,096	12,86
893,389	-24,77
893,681	-44,84
893,974	-107,57
894,266	15,37
894,559	-110,07
894,851	-67,42
895,143	-79,97
895,435	-29,79
895,727	55,51
896,019	-62,41
896,311	45,47
896,603	-37,32
896,895	-62,41
897,187	7,84
897,478	-77,46
897,77	-14,74
898,062	-84,99
898,353	2,82
898,644	2,82
898,936	-110,07
899,227	-2,2
899,518	-4,7
899,809	-44,84
900,1	-9,72
900,391	7,84
900,682	32,93
900,973	32,93
901,263	47,98
901,554	153,35
901,845	-22,27
902,135	15,37
902,426	30,42
902,716	-27,28
903,006	25,4
903,297	37,95
903,587	-69,93
903,877	-32,3
904,167	45,47
904,457	70,56
904,747	-22,27
905,036	35,44
905,326	63,03
905,616	-187,85
905,905	-95,02
906,195	7,84
906,484	90,63
906,773	40,45
907,063	5,33
907,352	-14,74
907,641	-22,27
907,93	-52,37
908,219	2,82
908,508	5,33
908,797	-24,77
909,086	2,82
909,374	-62,41
909,663	-170,29
909,951	55,51
910,24	-29,79
910,528	-74,95
910,817	-22,27
911,105	-72,44
911,393	-117,6
911,681	55,51
911,969	22,89
912,257	-102,55
912,545	22,89
912,833	30,42
913,121	-67,42
913,408	-9,72
913,696	-67,42
913,983	-24,77
914,271	-29,79
914,558	-49,86
914,846	80,6
915,133	30,42
915,42	-22,27
915,707	-34,81
915,994	-27,28
916,281	-29,79
916,568	-69,93
916,855	-2,2
917,141	-145,2
917,428	-9,72
917,715	-74,95
918,001	-34,81
918,287	-67,42
918,574	-17,25
918,86	-34,81
919,146	-14,74
919,432	-27,28
919,719	-120,11
920,004	45,47
920,29	-90
920,576	-22,27
920,862	-105,06
921,148	12,86
921,433	-22,27
921,719	0,31
922,004	58,02
922,29	5,33
922,575	-140,18
922,86	-12,23
923,145	-137,67
923,431	53
923,716	-12,23
924	70,56
924,285	-52,37
924,57	-105,06
924,855	-24,77
925,14	-97,53
925,424	-49,86
925,709	-102,55
925,993	-37,32
926,277	-22,27
926,562	55,51
926,846	-49,86
927,13	2,82
927,414	15,37
927,698	78,09
927,982	2,82
928,266	63,03
928,55	-14,74
928,833	53
929,117	17,88
929,4	75,58
929,684	15,37
929,967	37,95
930,251	100,67
930,534	-87,49
930,817	-34,81
931,1	-7,21
931,383	-117,6
931,666	-97,53
931,949	110,7
932,232	68,05
932,514	-39,83
932,797	40,45
933,08	-84,99
933,362	-137,67
933,645	47,98
933,927	-90
934,209	-62,41
934,491	5,33
934,774	-74,95
935,056	-92,51
935,338	-127,64
935,619	-137,67
935,901	-4,7
936,183	17,88
936,465	12,86
936,746	-29,79
937,028	-79,97
937,309	45,47
937,591	47,98
937,872	-49,86
938,153	-14,74
938,434	-87,49
938,715	-44,84
938,996	7,84
939,277	-49,86
939,558	-59,9
939,839	80,6
940,12	113,21
940,4	32,93
940,681	-34,81
940,961	27,91
941,242	47,98
941,522	35,44
941,802	45,47
942,082	10,35
942,362	-77,46
942,642	27,91
942,922	-12,23
943,202	-34,81
943,482	40,45
943,762	-44,84
944,041	-47,35
944,321	7,84
944,6	2,82
944,88	-137,67
945,159	35,44
945,438	-4,7
945,718	-12,23
945,997	60,52
946,276	-125,13
946,555	5,33
946,834	2,82
947,112	63,03
947,391	42,96
947,67	-27,28
947,948	30,42
948,227	-9,72
948,505	-59,9
948,784	-49,86
949,062	-14,74
949,34	-19,76
949,618	-95,02
949,896	-160,25
950,174	-74,95
950,452	-19,76
950,73	5,33
951,008	78,09
951,285	105,68
951,563	-24,77
951,84	-137,67
952,118	-27,28
952,395	-32,3
952,673	-49,86
952,95	-34,81
953,227	5,33
953,504	-39,83
953,781	-52,37
954,058	-100,04
954,335	-4,7
954,611	80,6
954,888	-32,3
955,165	-42,34
955,441	-22,27
955,718	-77,46
955,994	47,98
956,27	-42,34
956,546	-72,44
956,823	-157,74
957,099	30,42
957,375	-17,25
957,651	32,93
957,926	-37,32
958,202	-39,83
958,478	-54,88
958,753	-19,76
959,029	-29,79
959,304	-4,7
959,58	-7,21
959,855	10,35
960,13	-37,32
960,405	-72,44
960,68	-24,77
960,955	-79,97
961,23	-100,04
961,505	-9,72
961,78	-47,35
962,055	-32,3
962,329	17,88
962,604	-7,21
962,878	2,82
963,153	-4,7
963,427	-147,71
963,701	-12,23
963,975	45,47
964,249	-54,88
964,523	55,51
964,797	-34,81
965,071	-62,41
965,345	-112,58
965,618	-29,79
965,892	-27,28
966,166	-9,72
966,439	2,82
966,712	-17,25
966,986	-24,77
967,259	-64,92
967,532	-42,34
967,805	25,4
968,078	-49,86
968,351	-115,09
968,624	-32,3
968,896	-47,35
969,169	10,35
969,442	-62,41
969,714	22,89
969,987	-97,53
970,259	5,33
970,531	30,42
970,803	-47,35
971,076	45,47
971,348	25,4
971,62	-72,44
971,891	-17,25
972,163	60,52
972,435	-14,74
972,707	-22,27
972,978	-37,32
973,25	-90
973,521	-77,46
973,793	58,02
974,064	-62,41
974,335	-150,21
974,606	-49,86
974,877	-9,72
975,148	12,86
975,419	-2,2
975,69	-82,48
975,96	-90
976,231	-24,77
976,502	-34,81
976,772	-42,34
977,042	-17,25
977,313	27,91
977,583	22,89
977,853	-64,92
978,123	-42,34
978,393	20,38
978,663	-27,28
978,933	-145,2
979,203	-107,57
979,473	-37,32
979,742	-77,46
980,012	5,33
980,281	-90
980,551	0,31
980,82	-44,84
981,089	-54,88
981,358	25,4
981,627	-115,09
981,896	45,47
982,165	10,35
982,434	-29,79
982,703	-29,79
982,971	-24,77
983,24	-39,83
983,509	-37,32
983,777	65,54
984,045	47,98
984,314	-44,84
984,582	-140,18
984,85	-39,83
985,118	-14,74
985,386	-82,48
985,654	-19,76
985,922	-79,97
986,189	-24,77
986,457	-95,02
986,725	-132,65
986,992	-82,48
987,26	27,91
987,527	-12,23
987,794	-52,37
988,061	-7,21
988,328	-12,23
988,595	2,82
988,862	-27,28
989,129	78,09
989,396	-64,92
989,663	27,91
989,929	-130,14
990,196	40,45
990,462	-62,41
990,729	-49,86
990,995	37,95
991,261	-140,18
991,527	-87,49
991,793	-17,25
992,059	25,4
992,325	-62,41
992,591	-39,83
992,857	50,49
993,122	-90
993,388	37,95
993,654	-62,41
993,919	53
994,184	-102,55
994,45	53
994,715	37,95
994,98	47,98
995,245	30,42
995,51	-37,32
995,775	-69,93
996,039	-67,42
996,304	-62,41
996,569	7,84
996,833	-150,21
997,098	-34,81
997,362	40,45
997,626	-17,25
997,891	-7,21
998,155	12,86
998,419	35,44
998,683	-12,23
998,947	-14,74
999,211	-9,72
999,474	-54,88
999,738	-29,79
1000,002	17,88
1000,265	-37,32
1000,528	63,03
1000,792	-92,51
1001,055	35,44
1001,318	-47,35
1001,581	-24,77
1001,844	-64,92
1002,107	-17,25
1002,37	-79,97
1002,633	-44,84
1002,896	10,35
1003,158	-160,25
1003,421	-64,92
1003,683	-100,04
1003,946	-84,99
1004,208	-39,83
1004,47	63,03
1004,732	-49,86
1004,994	-37,32
1005,256	120,74
1005,518	-7,21
1005,78	-24,77
1006,042	-84,99
1006,303	-9,72
1006,565	-32,3
1006,826	5,33
1007,088	7,84
1007,349	-74,95
1007,61	-52,37
1007,872	-42,34
1008,133	-42,34
1008,394	-62,41
1008,655	-79,97
1008,915	-77,46
1009,176	-2,2
1009,437	12,86
1009,697	-57,39
1009,958	-57,39
1010,218	-57,39
