Data from Subt2_16-59-45-549.txt Node
Date: Wed Dec 05 16:59:45 CET 2018
User: Artur
Spectrometer: FLMS13639
Trigger mode: 0
Integration Time (sec): 1,000000E-1
Scans to average: 1
Electric dark correction enabled: true
Nonlinearity correction enabled: false
Boxcar width: 0
XAxis mode: Wavelengths
Number of Pixels in Spectrum: 2048
>>>>>Begin Spectral Data<<<<<
339,73	-59,58
340,109	-59,58
340,488	-59,58
340,866	-21,95
341,245	33,24
341,624	-47,04
342,002	45,79
342,381	13,17
342,759	80,91
343,138	95,96
343,516	-1,88
343,894	15,68
344,273	60,84
344,651	-21,95
345,029	-9,41
345,408	30,73
345,786	-109,76
346,164	-72,13
346,542	-21,95
346,92	-31,99
347,298	-26,97
347,676	13,17
348,054	-39,51
348,432	68,36
348,81	-1,88
349,188	63,35
349,566	-44,53
349,944	-1,88
350,322	13,17
350,699	-44,53
351,077	-6,9
351,455	-64,6
351,832	-94,71
352,21	70,87
352,588	50,8
352,965	-9,41
353,343	0,63
353,72	-24,46
354,098	-117,29
354,475	-37
354,852	-31,99
355,23	-127,32
355,607	40,77
355,984	-39,51
356,361	3,14
356,739	-54,57
357,116	-74,64
357,493	-1,88
357,87	73,38
358,247	-64,6
358,624	60,84
359,001	-34,5
359,378	5,64
359,755	-67,11
360,132	15,68
360,508	-37
360,885	-29,48
361,262	-99,72
361,639	116,03
362,015	-19,44
362,392	23,21
362,769	68,36
363,145	18,19
363,522	15,68
363,898	-52,06
364,275	-37
364,651	-84,67
365,028	-29,48
365,404	30,73
365,78	35,75
366,157	-31,99
366,533	15,68
366,909	-11,92
367,285	-21,95
367,661	-4,39
368,038	-167,46
368,414	15,68
368,79	-62,09
369,166	18,19
369,542	-79,65
369,918	-52,06
370,294	106
370,669	-21,95
371,045	53,31
371,421	-67,11
371,797	-47,04
372,172	-4,39
372,548	30,73
372,924	126,07
373,299	18,19
373,675	33,24
374,05	-104,74
374,426	18,19
374,801	10,66
375,177	23,21
375,552	-44,53
375,928	25,72
376,303	-84,67
376,678	58,33
377,053	63,35
377,429	-44,53
377,804	-29,48
378,179	5,64
378,554	88,44
378,929	-42,02
379,304	-49,55
379,679	-37
380,054	-9,41
380,429	3,14
380,804	38,26
381,179	83,42
381,553	28,22
381,928	-72,13
382,303	-134,85
382,678	40,77
383,052	-21,95
383,427	48,29
383,801	8,15
384,176	80,91
384,551	-52,06
384,925	-21,95
385,299	-37
385,674	55,82
386,048	58,33
386,422	-67,11
386,797	-47,04
387,171	28,22
387,545	60,84
387,919	-44,53
388,293	-67,11
388,668	-42,02
389,042	10,66
389,416	-82,16
389,79	40,77
390,164	-49,55
390,537	18,19
390,911	-31,99
391,285	-34,5
391,659	53,31
392,033	-52,06
392,406	-87,18
392,78	25,72
393,154	-29,48
393,527	68,36
393,901	28,22
394,274	-39,51
394,648	-64,6
395,021	-57,08
395,395	5,64
395,768	78,4
396,142	-31,99
396,515	15,68
396,888	-57,08
397,261	50,8
397,635	35,75
398,008	33,24
398,381	-104,74
398,754	-19,44
399,127	-37
399,5	0,63
399,873	-34,5
400,246	111,01
400,619	53,31
400,991	23,21
401,364	18,19
401,737	-74,64
402,11	28,22
402,482	55,82
402,855	48,29
403,228	-34,5
403,6	20,7
403,973	8,15
404,345	55,82
404,718	15,68
405,09	-4,39
405,463	8,15
405,835	5,64
406,207	-104,74
406,58	-49,55
406,952	-19,44
407,324	40,77
407,696	-49,55
408,068	60,84
408,44	3,14
408,812	-37
409,184	18,19
409,556	48,29
409,928	-21,95
410,3	-4,39
410,672	-132,34
411,044	-57,08
411,416	63,35
411,787	-79,65
412,159	35,75
412,531	35,75
412,902	20,7
413,274	13,17
413,645	83,42
414,017	-14,43
414,388	-14,43
414,76	13,17
415,131	50,8
415,503	-69,62
415,874	-64,6
416,245	55,82
416,616	-26,97
416,987	-42,02
417,359	53,31
417,73	0,63
418,101	20,7
418,472	53,31
418,843	60,84
419,214	-64,6
419,585	-11,92
419,956	58,33
420,326	3,14
420,697	-26,97
421,068	-94,71
421,439	3,14
421,809	-6,9
422,18	-79,65
422,551	28,22
422,921	-9,41
423,292	-9,41
423,662	50,8
424,033	-26,97
424,403	10,66
424,773	-26,97
425,144	-11,92
425,514	-67,11
425,884	-52,06
426,254	13,17
426,624	0,63
426,995	95,96
427,365	60,84
427,735	35,75
428,105	-52,06
428,475	58,33
428,845	45,79
429,214	-16,93
429,584	-14,43
429,954	-29,48
430,324	80,91
430,694	-4,39
431,063	3,14
431,433	65,86
431,803	-6,9
432,172	73,38
432,542	-14,43
432,911	-31,99
433,281	-9,41
433,65	-72,13
434,019	-34,5
434,389	10,66
434,758	123,56
435,127	-16,93
435,496	23,21
435,866	-69,62
436,235	-37
436,604	-42,02
436,973	-24,46
437,342	-79,65
437,711	-52,06
438,08	50,8
438,449	-42,02
438,817	136,1
439,186	13,17
439,555	111,01
439,924	38,26
440,292	-59,58
440,661	-74,64
441,03	-84,67
441,398	18,19
441,767	-87,18
442,135	-16,93
442,503	25,72
442,872	-34,5
443,24	58,33
443,609	-82,16
443,977	18,19
444,345	-24,46
444,713	60,84
445,081	100,98
445,449	38,26
445,818	80,91
446,186	-49,55
446,554	-47,04
446,921	-37
447,289	-21,95
447,657	3,14
448,025	-47,04
448,393	13,17
448,761	10,66
449,128	-16,93
449,496	38,26
449,864	-21,95
450,231	8,15
450,599	-21,95
450,966	-31,99
451,334	-59,58
451,701	-72,13
452,068	43,28
452,436	-62,09
452,803	-47,04
453,17	-97,22
453,537	38,26
453,905	-64,6
454,272	-34,5
454,639	-24,46
455,006	-47,04
455,373	-67,11
455,74	55,82
456,107	30,73
456,473	5,64
456,84	-37
457,207	-54,57
457,574	-89,69
457,941	8,15
458,307	-24,46
458,674	-39,51
459,04	25,72
459,407	-67,11
459,773	5,64
460,14	0,63
460,506	-6,9
460,873	60,84
461,239	60,84
461,605	20,7
461,972	-52,06
462,338	-16,93
462,704	-6,9
463,07	-1,88
463,436	-26,97
463,802	15,68
464,168	53,31
464,534	-21,95
464,9	53,31
465,266	30,73
465,632	60,84
465,997	-14,43
466,363	5,64
466,729	25,72
467,094	-72,13
467,46	-52,06
467,826	50,8
468,191	-9,41
468,557	-49,55
468,922	-49,55
469,288	-14,43
469,653	-37
470,018	53,31
470,383	-97,22
470,749	23,21
471,114	-29,48
471,479	-49,55
471,844	-62,09
472,209	0,63
472,574	-14,43
472,939	-31,99
473,304	-87,18
473,669	18,19
474,034	-42,02
474,399	-29,48
474,763	0,63
475,128	-37
475,493	-67,11
475,857	50,8
476,222	63,35
476,587	-82,16
476,951	-114,78
477,316	-9,41
477,68	-77,15
478,044	18,19
478,409	48,29
478,773	-34,5
479,137	-16,93
479,501	-6,9
479,866	20,7
480,23	25,72
480,594	-99,72
480,958	60,84
481,322	88,44
481,686	-6,9
482,05	-134,85
482,413	-11,92
482,777	13,17
483,141	45,79
483,505	8,15
483,868	45,79
484,232	10,66
484,596	-49,55
484,959	40,77
485,323	103,49
485,686	-64,6
486,05	3,14
486,413	-31,99
486,776	-47,04
487,14	-54,57
487,503	50,8
487,866	-39,51
488,229	28,22
488,592	-52,06
488,956	-134,85
489,319	3,14
489,682	18,19
490,045	-29,48
490,407	-34,5
490,77	-89,69
491,133	-34,5
491,496	40,77
491,859	93,45
492,221	0,63
492,584	13,17
492,947	-39,51
493,309	23,21
493,672	20,7
494,034	33,24
494,396	50,8
494,759	38,26
495,121	58,33
495,483	3,14
495,846	-11,92
496,208	-97,22
496,57	13,17
496,932	10,66
497,294	-104,74
497,656	-4,39
498,018	10,66
498,38	-37
498,742	38,26
499,104	20,7
499,466	100,98
499,827	-37
500,189	30,73
500,551	33,24
500,912	53,31
501,274	68,36
501,636	3,14
501,997	83,42
502,359	-42,02
502,72	68,36
503,081	10,66
503,443	68,36
503,804	10,66
504,165	-24,46
504,526	-19,44
504,887	-42,02
505,249	-11,92
505,61	13,17
505,971	65,86
506,332	48,29
506,692	-31,99
507,053	55,82
507,414	33,24
507,775	106
508,136	25,72
508,496	43,28
508,857	-4,39
509,218	-52,06
509,578	25,72
509,939	70,87
510,299	45,79
510,66	151,16
511,02	18,19
511,38	-19,44
511,741	68,36
512,101	-39,51
512,461	-21,95
512,821	-21,95
513,181	83,42
513,541	3,14
513,901	53,31
514,261	65,86
514,621	45,79
514,981	15,68
515,341	-49,55
515,701	-97,22
516,06	35,75
516,42	80,91
516,78	-24,46
517,139	-16,93
517,499	73,38
517,859	40,77
518,218	-72,13
518,577	-9,41
518,937	38,26
519,296	20,7
519,655	43,28
520,015	28,22
520,374	28,22
520,733	90,94
521,092	43,28
521,451	-44,53
521,81	100,98
522,169	-127,32
522,528	38,26
522,887	18,19
523,246	20,7
523,605	-11,92
523,963	-24,46
524,322	45,79
524,681	8,15
525,039	18,19
525,398	43,28
525,756	50,8
526,115	-64,6
526,473	8,15
526,832	38,26
527,19	38,26
527,548	138,61
527,906	176,24
528,265	38,26
528,623	53,31
528,981	30,73
529,339	-6,9
529,697	-44,53
530,055	-29,48
530,413	43,28
530,771	23,21
531,128	68,36
531,486	-19,44
531,844	58,33
532,202	70,87
532,559	65,86
532,917	-21,95
533,274	38,26
533,632	33,24
533,989	-26,97
534,347	136,1
534,704	23,21
535,061	43,28
535,419	35,75
535,776	-11,92
536,133	85,93
536,49	15,68
536,847	50,8
537,204	40,77
537,561	-1,88
537,918	-4,39
538,275	60,84
538,632	68,36
538,989	18,19
539,346	53,31
539,702	-29,48
540,059	-1,88
540,415	80,91
540,772	-104,74
541,129	108,51
541,485	133,59
541,841	65,86
542,198	3,14
542,554	25,72
542,91	40,77
543,267	5,64
543,623	0,63
543,979	73,38
544,335	75,89
544,691	73,38
545,047	80,91
545,403	33,24
545,759	131,09
546,115	136,1
546,471	30,73
546,826	93,45
547,182	53,31
547,538	-6,9
547,893	116,03
548,249	113,52
548,605	-9,41
548,96	65,86
549,315	43,28
549,671	65,86
550,026	80,91
550,381	93,45
550,737	221,4
551,092	158,68
551,447	201,33
551,802	63,35
552,157	65,86
552,512	118,54
552,867	158,68
553,222	168,72
553,577	93,45
553,932	201,33
554,286	163,7
554,641	183,77
554,996	98,47
555,35	123,56
555,705	183,77
556,06	126,07
556,414	128,58
556,768	226,42
557,123	181,26
557,477	231,44
557,831	151,16
558,186	221,4
558,54	261,54
558,894	344,33
559,248	329,28
559,602	339,32
559,956	249
560,31	243,98
560,664	266,56
561,018	269,07
561,372	236,45
561,725	259,03
562,079	321,75
562,433	326,77
562,786	439,67
563,14	336,81
563,493	291,65
563,847	519,95
564,2	427,12
564,554	514,93
564,907	371,93
565,26	429,63
565,614	472,28
565,967	417,09
566,32	527,48
566,673	469,77
567,026	479,81
567,379	439,67
567,732	522,46
568,085	512,42
568,438	535
568,79	567,62
569,143	580,16
569,496	585,18
569,848	555,07
570,201	607,76
570,554	522,46
570,906	592,71
571,259	602,74
571,611	562,6
571,963	738,22
572,316	725,67
572,668	690,55
573,02	705,6
573,372	730,69
573,724	773,34
574,076	770,83
574,428	595,21
574,78	780,87
575,132	780,87
575,484	846,09
575,836	765,81
576,188	773,34
576,539	853,62
576,891	836,06
577,243	878,71
577,594	826,02
577,946	725,67
578,297	815,99
578,649	911,32
579	923,87
579,351	948,96
579,703	853,62
580,054	826,02
580,405	941,43
580,756	971,53
581,107	868,67
581,458	871,18
581,809	838,57
582,16	833,55
582,511	981,57
582,862	958,99
583,212	1009,17
583,563	933,9
583,914	896,27
584,264	911,32
584,615	798,43
584,966	883,73
585,316	931,39
585,666	833,55
586,017	876,2
586,367	773,34
586,717	831,04
587,068	826,02
587,418	891,25
587,768	821,01
588,118	780,87
588,468	891,25
588,818	670,48
589,168	758,29
589,518	675,5
589,868	803,44
590,217	803,44
590,567	718,15
590,917	823,52
591,266	725,67
591,616	725,67
591,966	670,48
592,315	632,85
592,664	529,99
593,014	557,58
593,363	622,81
593,712	600,23
594,062	605,25
594,411	419,6
594,76	678
595,109	575,14
595,458	577,65
595,807	452,21
596,156	487,34
596,505	442,18
596,854	449,7
597,202	402,04
597,551	369,42
597,9	452,21
598,248	299,17
598,597	316,74
598,945	254,02
599,294	389,49
599,642	284,12
599,991	379,46
600,339	331,79
600,687	259,03
601,035	326,77
601,384	381,97
601,732	354,37
602,08	249
602,428	218,89
602,776	351,86
603,124	339,32
603,471	191,3
603,819	294,16
604,167	241,47
604,515	183,77
604,862	241,47
605,21	279,1
605,557	218,89
605,905	123,56
606,252	203,84
606,6	153,66
606,947	161,19
607,294	148,65
607,642	206,35
607,989	113,52
608,336	131,09
608,683	163,7
609,03	25,72
609,377	151,16
609,724	143,63
610,071	138,61
610,418	203,84
610,765	131,09
611,111	73,38
611,458	143,63
611,805	48,29
612,151	58,33
612,498	158,68
612,844	178,75
613,191	206,35
613,537	128,58
613,883	60,84
614,23	171,23
614,576	143,63
614,922	111,01
615,268	78,4
615,614	133,59
615,96	-6,9
616,306	88,44
616,652	38,26
616,998	55,82
617,344	45,79
617,689	53,31
618,035	128,58
618,381	13,17
618,726	75,89
619,072	20,7
619,417	38,26
619,763	100,98
620,108	85,93
620,453	85,93
620,799	73,38
621,144	141,12
621,489	63,35
621,834	100,98
622,179	126,07
622,524	75,89
622,869	103,49
623,214	121,05
623,559	58,33
623,904	40,77
624,249	70,87
624,593	83,42
624,938	188,79
625,283	-14,43
625,627	48,29
625,972	93,45
626,316	98,47
626,66	118,54
627,005	95,96
627,349	40,77
627,693	0,63
628,037	98,47
628,382	8,15
628,726	20,7
629,07	93,45
629,414	-16,93
629,757	20,7
630,101	83,42
630,445	53,31
630,789	70,87
631,133	-62,09
631,476	33,24
631,82	25,72
632,163	-39,51
632,507	-11,92
632,85	40,77
633,194	-59,58
633,537	-29,48
633,88	53,31
634,224	50,8
634,567	-21,95
634,91	108,51
635,253	73,38
635,596	-37
635,939	-62,09
636,282	45,79
636,625	-34,5
636,967	-94,71
637,31	-84,67
637,653	-4,39
637,996	-9,41
638,338	-24,46
638,681	95,96
639,023	35,75
639,366	-39,51
639,708	63,35
640,05	-44,53
640,393	20,7
640,735	-4,39
641,077	63,35
641,419	-16,93
641,761	15,68
642,103	43,28
642,445	-49,55
642,787	3,14
643,129	65,86
643,471	35,75
643,812	93,45
644,154	-152,41
644,496	23,21
644,837	35,75
645,179	-4,39
645,52	0,63
645,862	15,68
646,203	-34,5
646,544	0,63
646,886	0,63
647,227	78,4
647,568	-64,6
647,909	45,79
648,25	3,14
648,591	88,44
648,932	-11,92
649,273	65,86
649,614	95,96
649,954	28,22
650,295	48,29
650,636	-112,27
650,976	10,66
651,317	10,66
651,657	53,31
651,998	93,45
652,338	-6,9
652,679	-37
653,019	-72,13
653,359	-114,78
653,699	116,03
654,039	-14,43
654,379	-119,8
654,719	-16,93
655,059	20,7
655,399	-9,41
655,739	-4,39
656,079	23,21
656,419	13,17
656,758	-52,06
657,098	-31,99
657,437	55,82
657,777	13,17
658,116	18,19
658,456	-26,97
658,795	-62,09
659,135	0,63
659,474	-92,2
659,813	-47,04
660,152	45,79
660,491	10,66
660,83	-37
661,169	103,49
661,508	13,17
661,847	-19,44
662,186	23,21
662,524	-39,51
662,863	-44,53
663,202	68,36
663,54	-92,2
663,879	18,19
664,217	73,38
664,556	85,93
664,894	43,28
665,233	-74,64
665,571	35,75
665,909	23,21
666,247	50,8
666,585	-6,9
666,923	-39,51
667,261	-29,48
667,599	-109,76
667,937	-6,9
668,275	-29,48
668,613	-6,9
668,95	48,29
669,288	23,21
669,626	40,77
669,963	-97,22
670,301	-79,65
670,638	25,72
670,975	28,22
671,313	-37
671,65	-4,39
671,987	43,28
672,324	-29,48
672,661	78,4
672,998	-14,43
673,335	-29,48
673,672	-109,76
674,009	-87,18
674,346	68,36
674,683	-34,5
675,019	-11,92
675,356	98,47
675,693	55,82
676,029	-11,92
676,366	-24,46
676,702	63,35
677,039	-37
677,375	55,82
677,711	58,33
678,047	20,7
678,383	60,84
678,72	78,4
679,056	55,82
679,392	-59,58
679,727	28,22
680,063	-26,97
680,399	-52,06
680,735	35,75
681,071	-42,02
681,406	-62,09
681,742	-92,2
682,077	50,8
682,413	-39,51
682,748	35,75
683,084	-54,57
683,419	55,82
683,754	-26,97
684,089	8,15
684,424	-44,53
684,76	-104,74
685,095	35,75
685,429	18,19
685,764	0,63
686,099	20,7
686,434	40,77
686,769	-14,43
687,103	55,82
687,438	-67,11
687,773	-37
688,107	63,35
688,442	-9,41
688,776	-4,39
689,11	-6,9
689,445	-62,09
689,779	83,42
690,113	38,26
690,447	50,8
690,781	50,8
691,115	23,21
691,449	-57,08
691,783	35,75
692,117	83,42
692,451	3,14
692,784	33,24
693,118	-29,48
693,452	60,84
693,785	-57,08
694,119	10,66
694,452	60,84
694,786	-112,27
695,119	-6,9
695,452	3,14
695,785	18,19
696,118	43,28
696,452	-29,48
696,785	-26,97
697,118	13,17
697,45	-64,6
697,783	13,17
698,116	-11,92
698,449	-89,69
698,782	-11,92
699,114	111,01
699,447	-64,6
699,779	-44,53
700,112	58,33
700,444	-26,97
700,776	-21,95
701,109	-29,48
701,441	-94,71
701,773	146,14
702,105	-49,55
702,437	-16,93
702,769	43,28
703,101	35,75
703,433	-24,46
703,765	-47,04
704,097	55,82
704,428	35,75
704,76	100,98
705,092	65,86
705,423	30,73
705,755	-49,55
706,086	30,73
706,417	58,33
706,749	-39,51
707,08	-92,2
707,411	48,29
707,742	13,17
708,073	-112,27
708,404	-21,95
708,735	13,17
709,066	-37
709,397	-14,43
709,728	3,14
710,059	48,29
710,389	-19,44
710,72	43,28
711,05	35,75
711,381	-44,53
711,711	-84,67
712,042	-62,09
712,372	-4,39
712,702	-39,51
713,033	-44,53
713,363	40,77
713,693	13,17
714,023	65,86
714,353	-26,97
714,683	-34,5
715,013	128,58
715,342	5,64
715,672	25,72
716,002	-64,6
716,331	-54,57
716,661	23,21
716,99	-44,53
717,32	50,8
717,649	-99,72
717,979	25,72
718,308	48,29
718,637	30,73
718,966	-26,97
719,295	-82,16
719,624	15,68
719,953	-59,58
720,282	33,24
720,611	-19,44
720,94	38,26
721,269	55,82
721,597	68,36
721,926	-57,08
722,254	13,17
722,583	103,49
722,911	-64,6
723,24	-21,95
723,568	-84,67
723,896	-57,08
724,225	-14,43
724,553	90,94
724,881	33,24
725,209	-44,53
725,537	33,24
725,865	15,68
726,193	93,45
726,52	20,7
726,848	80,91
727,176	68,36
727,503	-84,67
727,831	30,73
728,158	33,24
728,486	113,52
728,813	-102,23
729,14	-49,55
729,468	-16,93
729,795	-9,41
730,122	103,49
730,449	-64,6
730,776	-21,95
731,103	-47,04
731,43	58,33
731,757	111,01
732,084	60,84
732,41	-64,6
732,737	-67,11
733,064	93,45
733,39	-26,97
733,717	-37
734,043	-69,62
734,369	10,66
734,696	111,01
735,022	35,75
735,348	30,73
735,674	38,26
736	-122,3
736,326	-1,88
736,652	5,64
736,978	33,24
737,304	38,26
737,63	38,26
737,955	63,35
738,281	40,77
738,607	73,38
738,932	33,24
739,258	-127,32
739,583	-21,95
739,908	48,29
740,234	-77,15
740,559	-6,9
740,884	-34,5
741,209	-26,97
741,534	-11,92
741,859	-11,92
742,184	10,66
742,509	-54,57
742,834	-97,22
743,158	28,22
743,483	-6,9
743,808	38,26
744,132	-24,46
744,457	-14,43
744,781	-21,95
745,106	35,75
745,43	8,15
745,754	5,64
746,078	5,64
746,402	43,28
746,727	15,68
747,051	-4,39
747,375	-29,48
747,698	-49,55
748,022	48,29
748,346	-114,78
748,67	40,77
748,993	8,15
749,317	-127,32
749,64	88,44
749,964	-69,62
750,287	-52,06
750,611	-26,97
750,934	10,66
751,257	63,35
751,58	33,24
751,903	25,72
752,226	35,75
752,549	-1,88
752,872	43,28
753,195	-34,5
753,518	-99,72
753,841	-34,5
754,163	5,64
754,486	-6,9
754,809	40,77
755,131	63,35
755,453	-59,58
755,776	-94,71
756,098	45,79
756,42	93,45
756,743	-47,04
757,065	-6,9
757,387	45,79
757,709	60,84
758,031	-134,85
758,352	30,73
758,674	-34,5
758,996	60,84
759,318	-142,37
759,639	-24,46
759,961	3,14
760,282	-34,5
760,604	-57,08
760,925	3,14
761,247	65,86
761,568	-1,88
761,889	-49,55
762,21	-31,99
762,531	-47,04
762,852	-29,48
763,173	53,31
763,494	53,31
763,815	33,24
764,136	-57,08
764,456	8,15
764,777	-1,88
765,098	23,21
765,418	-139,87
765,738	-9,41
766,059	50,8
766,379	-37
766,699	55,82
767,02	-142,37
767,34	-47,04
767,66	-62,09
767,98	35,75
768,3	-24,46
768,62	-14,43
768,94	23,21
769,259	-117,29
769,579	-54,57
769,899	-84,67
770,218	35,75
770,538	-34,5
770,857	13,17
771,177	-69,62
771,496	0,63
771,815	80,91
772,134	25,72
772,454	38,26
772,773	-16,93
773,092	8,15
773,411	23,21
773,729	-79,65
774,048	3,14
774,367	-119,8
774,686	-57,08
775,004	-31,99
775,323	143,63
775,642	-6,9
775,96	43,28
776,278	63,35
776,597	45,79
776,915	13,17
777,233	-31,99
777,551	-14,43
777,869	3,14
778,187	-9,41
778,505	-79,65
778,823	-52,06
779,141	10,66
779,459	73,38
779,777	-31,99
780,094	48,29
780,412	5,64
780,729	-16,93
781,047	65,86
781,364	23,21
781,681	-26,97
781,999	0,63
782,316	23,21
782,633	-4,39
782,95	-94,71
783,267	-54,57
783,584	-177,5
783,901	-94,71
784,218	-94,71
784,534	-34,5
784,851	-9,41
785,168	53,31
785,484	0,63
785,801	30,73
786,117	-24,46
786,434	-42,02
786,75	10,66
787,066	58,33
787,382	-1,88
787,698	-24,46
788,014	93,45
788,33	68,36
788,646	-39,51
788,962	-109,76
789,278	15,68
789,594	33,24
789,909	60,84
790,225	13,17
790,541	-57,08
790,856	5,64
791,171	-34,5
791,487	58,33
791,802	50,8
792,117	-21,95
792,432	30,73
792,748	-34,5
793,063	18,19
793,378	-11,92
793,692	-124,81
794,007	3,14
794,322	0,63
794,637	100,98
794,951	10,66
795,266	-24,46
795,58	-9,41
795,895	-47,04
796,209	-72,13
796,524	-6,9
796,838	106
797,152	13,17
797,466	-39,51
797,78	0,63
798,094	-72,13
798,408	45,79
798,722	50,8
799,036	-6,9
799,35	93,45
799,663	20,7
799,977	-14,43
800,291	13,17
800,604	45,79
800,917	-4,39
801,231	78,4
801,544	-29,48
801,857	-72,13
802,17	-19,44
802,484	-44,53
802,797	-31,99
803,11	-42,02
803,422	-92,2
803,735	-6,9
804,048	-14,43
804,361	-6,9
804,673	-99,72
804,986	-64,6
805,299	-49,55
805,611	-44,53
805,923	25,72
806,236	18,19
806,548	5,64
806,86	-6,9
807,172	10,66
807,484	100,98
807,796	-14,43
808,108	-54,57
808,42	10,66
808,732	33,24
809,044	58,33
809,355	-119,8
809,667	65,86
809,978	-62,09
810,29	-21,95
810,601	-79,65
810,913	33,24
811,224	5,64
811,535	18,19
811,846	5,64
812,157	-102,23
812,468	40,77
812,779	15,68
813,09	-57,08
813,401	45,79
813,712	-11,92
814,023	-42,02
814,333	-49,55
814,644	-1,88
814,954	30,73
815,265	-44,53
815,575	68,36
815,885	-47,04
816,196	-24,46
816,506	-37
816,816	60,84
817,126	8,15
817,436	10,66
817,746	-19,44
818,056	3,14
818,365	93,45
818,675	53,31
818,985	63,35
819,294	-177,5
819,604	45,79
819,913	-44,53
820,223	-39,51
820,532	128,58
820,841	-34,5
821,15	141,12
821,459	-24,46
821,768	-16,93
822,077	-29,48
822,386	-89,69
822,695	28,22
823,004	-24,46
823,313	45,79
823,621	-117,29
823,93	78,4
824,238	58,33
824,547	-74,64
824,855	-19,44
825,164	-52,06
825,472	58,33
825,78	20,7
826,088	-54,57
826,396	63,35
826,704	28,22
827,012	-92,2
827,32	48,29
827,628	-4,39
827,935	15,68
828,243	-31,99
828,551	-72,13
828,858	85,93
829,166	20,7
829,473	-39,51
829,78	-29,48
830,088	60,84
830,395	-14,43
830,702	33,24
831,009	23,21
831,316	-21,95
831,623	73,38
831,93	-99,72
832,236	-6,9
832,543	15,68
832,85	28,22
833,156	20,7
833,463	-42,02
833,769	-31,99
834,076	-4,39
834,382	-21,95
834,688	8,15
834,994	-34,5
835,301	-92,2
835,607	-34,5
835,913	-11,92
836,218	63,35
836,524	-129,83
836,83	45,79
837,136	70,87
837,441	-31,99
837,747	-31,99
838,053	-57,08
838,358	-9,41
838,663	-67,11
838,969	-24,46
839,274	-62,09
839,579	-122,3
839,884	-112,27
840,189	-57,08
840,494	5,64
840,799	-99,72
841,104	-89,69
841,409	-34,5
841,713	-14,43
842,018	0,63
842,323	-147,39
842,627	-1,88
842,931	-59,58
843,236	0,63
843,54	33,24
843,844	-37
844,148	18,19
844,453	-57,08
844,757	3,14
845,061	-42,02
845,364	116,03
845,668	8,15
845,972	-92,2
846,276	-59,58
846,579	33,24
846,883	5,64
847,186	-72,13
847,49	-52,06
847,793	-57,08
848,096	45,79
848,4	-9,41
848,703	-24,46
849,006	13,17
849,309	23,21
849,612	35,75
849,915	-52,06
850,217	45,79
850,52	28,22
850,823	-26,97
851,125	-44,53
851,428	-124,81
851,73	75,89
852,033	-52,06
852,335	30,73
852,637	15,68
852,939	-19,44
853,242	40,77
853,544	-127,32
853,846	-26,97
854,147	60,84
854,449	18,19
854,751	48,29
855,053	103,49
855,354	83,42
855,656	-97,22
855,957	-21,95
856,259	5,64
856,56	-49,55
856,862	28,22
857,163	-57,08
857,464	65,86
857,765	-24,46
858,066	-72,13
858,367	73,38
858,668	-92,2
858,969	-79,65
859,269	25,72
859,57	-31,99
859,871	-94,71
860,171	13,17
860,472	-37
860,772	-14,43
861,072	-4,39
861,373	-19,44
861,673	-52,06
861,973	35,75
862,273	70,87
862,573	5,64
862,873	88,44
863,173	8,15
863,472	20,7
863,772	128,58
864,072	-19,44
864,371	-6,9
864,671	55,82
864,97	18,19
865,27	-47,04
865,569	63,35
865,868	-6,9
866,167	100,98
866,466	70,87
866,765	33,24
867,064	15,68
867,363	-44,53
867,662	58,33
867,961	38,26
868,259	-42,02
868,558	75,89
868,857	15,68
869,155	33,24
869,453	33,24
869,752	-47,04
870,05	-59,58
870,348	15,68
870,646	-42,02
870,944	-26,97
871,242	-87,18
871,54	88,44
871,838	-4,39
872,136	-142,37
872,433	-54,57
872,731	-37
873,028	68,36
873,326	-59,58
873,623	10,66
873,921	-49,55
874,218	55,82
874,515	-97,22
874,812	-52,06
875,109	-72,13
875,406	108,51
875,703	-4,39
876	33,24
876,297	-57,08
876,594	8,15
876,89	43,28
877,187	-4,39
877,483	-31,99
877,78	-16,93
878,076	35,75
878,372	-6,9
878,669	-19,44
878,965	43,28
879,261	-137,36
879,557	70,87
879,853	40,77
880,149	8,15
880,444	3,14
880,74	0,63
881,036	28,22
881,331	-26,97
881,627	-6,9
881,922	-54,57
882,218	43,28
882,513	-34,5
882,808	-44,53
883,103	23,21
883,398	-44,53
883,693	28,22
883,988	40,77
884,283	15,68
884,578	-44,53
884,873	-29,48
885,167	58,33
885,462	-77,15
885,756	-104,74
886,051	35,75
886,345	38,26
886,639	-79,65
886,934	-67,11
887,228	65,86
887,522	60,84
887,816	15,68
888,11	98,47
888,404	-37
888,698	70,87
888,991	28,22
889,285	-24,46
889,579	90,94
889,872	-64,6
890,166	-6,9
890,459	-26,97
890,752	-4,39
891,045	53,31
891,339	-24,46
891,632	-21,95
891,925	-92,2
892,218	-29,48
892,511	63,35
892,803	0,63
893,096	20,7
893,389	8,15
893,681	-42,02
893,974	-34,5
894,266	23,21
894,559	8,15
894,851	-26,97
895,143	-49,55
895,435	-49,55
895,727	63,35
896,019	55,82
896,311	23,21
896,603	-67,11
896,895	-37
897,187	25,72
897,478	-34,5
897,77	-42,02
898,062	-31,99
898,353	-14,43
898,644	-39,51
898,936	-74,64
899,227	3,14
899,518	-54,57
899,809	-49,55
900,1	-16,93
900,391	60,84
900,682	55,82
900,973	95,96
901,263	-11,92
901,554	53,31
901,845	108,51
902,135	20,7
902,426	-29,48
902,716	-57,08
903,006	50,8
903,297	-47,04
903,587	8,15
903,877	-87,18
904,167	20,7
904,457	33,24
904,747	-44,53
905,036	68,36
905,326	93,45
905,616	-142,37
905,905	-59,58
906,195	60,84
906,484	40,77
906,773	0,63
907,063	60,84
907,352	-47,04
907,641	18,19
907,93	-21,95
908,219	-52,06
908,508	-1,88
908,797	23,21
909,086	0,63
909,374	-94,71
909,663	-47,04
909,951	60,84
910,24	-6,9
910,528	-1,88
910,817	40,77
911,105	-62,09
911,393	-57,08
911,681	55,82
911,969	-57,08
912,257	-72,13
912,545	83,42
912,833	18,19
913,121	-14,43
913,408	75,89
913,696	33,24
913,983	-11,92
914,271	78,4
914,558	45,79
914,846	75,89
915,133	-39,51
915,42	-26,97
915,707	-21,95
915,994	25,72
916,281	-44,53
916,568	-117,29
916,855	-14,43
917,141	-94,71
917,428	-29,48
917,715	25,72
918,001	-9,41
918,287	-49,55
918,574	-44,53
918,86	43,28
919,146	0,63
919,432	-21,95
919,719	-87,18
920,004	40,77
920,29	-62,09
920,576	18,19
920,862	-62,09
921,148	38,26
921,433	-47,04
921,719	38,26
922,004	78,4
922,29	60,84
922,575	-6,9
922,86	-54,57
923,145	-64,6
923,431	75,89
923,716	38,26
924	-24,46
924,285	-49,55
924,57	-144,88
924,855	-4,39
925,14	-62,09
925,424	-64,6
925,709	13,17
925,993	-14,43
926,277	25,72
926,562	5,64
926,846	25,72
927,13	-47,04
927,414	55,82
927,698	0,63
927,982	-44,53
928,266	-19,44
928,55	28,22
928,833	75,89
929,117	-37
929,4	20,7
929,684	-37
929,967	43,28
930,251	-24,46
930,534	-109,76
930,817	58,33
931,1	-14,43
931,383	-107,25
931,666	-64,6
931,949	93,45
932,232	28,22
932,514	45,79
932,797	-16,93
933,08	-44,53
933,362	-26,97
933,645	126,07
933,927	-9,41
934,209	-117,29
934,491	50,8
934,774	-6,9
935,056	35,75
935,338	33,24
935,619	-112,27
935,901	-52,06
936,183	10,66
936,465	30,73
936,746	-52,06
937,028	-14,43
937,309	-14,43
937,591	88,44
937,872	-11,92
938,153	33,24
938,434	0,63
938,715	35,75
938,996	136,1
939,277	-87,18
939,558	-127,32
939,839	-47,04
940,12	50,8
940,4	45,79
940,681	0,63
940,961	13,17
941,242	8,15
941,522	-26,97
941,802	-24,46
942,082	73,38
942,362	-26,97
942,642	-16,93
942,922	-19,44
943,202	-9,41
943,482	20,7
943,762	121,05
944,041	83,42
944,321	8,15
944,6	53,31
944,88	-11,92
945,159	3,14
945,438	68,36
945,718	13,17
945,997	53,31
946,276	-11,92
946,555	13,17
946,834	113,52
947,112	98,47
947,391	138,61
947,67	-26,97
947,948	88,44
948,227	40,77
948,505	-24,46
948,784	-21,95
949,062	-47,04
949,34	-21,95
949,618	-107,25
949,896	-84,67
950,174	-62,09
950,452	-42,02
950,73	13,17
951,008	-54,57
951,285	35,75
951,563	-24,46
951,84	-54,57
952,118	45,79
952,395	-74,64
952,673	-54,57
952,95	-9,41
953,227	40,77
953,504	35,75
953,781	-19,44
954,058	30,73
954,335	13,17
954,611	-6,9
954,888	-34,5
955,165	68,36
955,441	-1,88
955,718	-129,83
955,994	53,31
956,27	30,73
956,546	-144,88
956,823	-47,04
957,099	-6,9
957,375	73,38
957,651	38,26
957,926	-134,85
958,202	-44,53
958,478	-104,74
958,753	-14,43
959,029	-49,55
959,304	-19,44
959,58	25,72
959,855	35,75
960,13	75,89
960,405	-31,99
960,68	43,28
960,955	-19,44
961,23	-44,53
961,505	55,82
961,78	-39,51
962,055	10,66
962,329	18,19
962,604	40,77
962,878	70,87
963,153	73,38
963,427	-42,02
963,701	15,68
963,975	43,28
964,249	-72,13
964,523	113,52
964,797	45,79
965,071	-79,65
965,345	0,63
965,618	-14,43
965,892	-9,41
966,166	-69,62
966,439	13,17
966,712	33,24
966,986	-69,62
967,259	-127,32
967,532	-11,92
967,805	-14,43
968,078	-49,55
968,351	-137,36
968,624	-54,57
968,896	-14,43
969,169	10,66
969,442	-42,02
969,714	0,63
969,987	-49,55
970,259	-74,64
970,531	18,19
970,803	-31,99
971,076	-26,97
971,348	-11,92
971,62	-134,85
971,891	15,68
972,163	65,86
972,435	-47,04
972,707	-37
972,978	15,68
973,25	-34,5
973,521	-34,5
973,793	100,98
974,064	-57,08
974,335	-24,46
974,606	-74,64
974,877	10,66
975,148	-31,99
975,419	-47,04
975,69	-59,58
975,96	-54,57
976,231	-82,16
976,502	-47,04
976,772	-42,02
977,042	-6,9
977,313	0,63
977,583	23,21
977,853	-31,99
978,123	3,14
978,393	38,26
978,663	-62,09
978,933	-84,67
979,203	-87,18
979,473	68,36
979,742	-9,41
980,012	-47,04
980,281	-104,74
980,551	-79,65
980,82	-1,88
981,089	43,28
981,358	-6,9
981,627	-24,46
981,896	3,14
982,165	85,93
982,434	-6,9
982,703	13,17
982,971	-4,39
983,24	13,17
983,509	-19,44
983,777	15,68
984,045	83,42
984,314	106
984,582	-44,53
984,85	-11,92
985,118	-4,39
985,386	-44,53
985,654	60,84
985,922	-49,55
986,189	78,4
986,457	-14,43
986,725	-119,8
986,992	-47,04
987,26	-52,06
987,527	33,24
987,794	-34,5
988,061	-31,99
988,328	-52,06
988,595	65,86
988,862	75,89
989,129	55,82
989,396	-62,09
989,663	-64,6
989,929	-44,53
990,196	30,73
990,462	-24,46
990,729	-59,58
990,995	-14,43
991,261	-54,57
991,527	-102,23
991,793	-49,55
992,059	28,22
992,325	-59,58
992,591	-44,53
992,857	-4,39
993,122	-82,16
993,388	18,19
993,654	-26,97
993,919	0,63
994,184	-114,78
994,45	75,89
994,715	-31,99
994,98	88,44
995,245	38,26
995,51	-4,39
995,775	-84,67
996,039	-42,02
996,304	-54,57
996,569	40,77
996,833	-79,65
997,098	75,89
997,362	23,21
997,626	-129,83
997,891	-42,02
998,155	78,4
998,419	-9,41
998,683	-16,93
998,947	48,29
999,211	13,17
999,474	-1,88
999,738	58,33
1000,002	-16,93
1000,265	43,28
1000,528	-1,88
1000,792	-47,04
1001,055	28,22
1001,318	18,19
1001,581	58,33
1001,844	10,66
1002,107	-44,53
1002,37	-39,51
1002,633	-31,99
1002,896	-24,46
1003,158	-52,06
1003,421	-4,39
1003,683	-67,11
1003,946	5,64
1004,208	25,72
1004,47	75,89
1004,732	35,75
1004,994	93,45
1005,256	65,86
1005,518	-64,6
1005,78	-14,43
1006,042	5,64
1006,303	60,84
1006,565	-79,65
1006,826	20,7
1007,088	80,91
1007,349	-84,67
1007,61	18,19
1007,872	-37
1008,133	23,21
1008,394	-21,95
1008,655	-34,5
1008,915	-26,97
1009,176	83,42
1009,437	-6,9
1009,697	-57,08
1009,958	-57,08
1010,218	-57,08
